File: LaB6_P1_C1_D1w_001.chi
E:\Dropbox\software\HIGP\LaB6_P1_C1_D1w_001.tif: 2-theta Scan
2-Theta Angle (Degrees)

       2189
 0.0238456  94.3374
 0.0556398  95.828
 0.087434  99.5673
 0.119228  114.798
 0.151022  167.611
 0.182816  116.415
 0.214611  97.7809
 0.246405  96.0503
 0.278199  94.1294
 0.309993  93.6605
 0.341787  96.1689
 0.373581  102.687
 0.405376  111.047
 0.43717  120.981
 0.468964  111.249
 0.500758  105.727
 0.532552  101.99
 0.564346  105.646
 0.596141  125.461
 0.627935  105.753
 0.659729  101.031
 0.691523  97.7335
 0.723317  98.4748
 0.755112  95.9704
 0.786906  95.6935
 0.8187  92.1677
 0.850494  90.9051
 0.882288  90.7556
 0.914082  91.4963
 0.945877  93.8191
 0.977671  93.4144
 1.00946  93.6526
 1.04126  91.379
 1.07305  90.4357
 1.10485  90.2101
 1.13664  90.4054
 1.16844  91.1283
 1.20023  91.4027
 1.23202  91.4463
 1.26382  96.993
 1.29561  99.9469
 1.32741  99.7925
 1.3592  101.847
 1.39099  96.4505
 1.42279  93.6049
 1.45458  93.3726
 1.48638  94.3957
 1.51817  93.2083
 1.54997  92.1603
 1.58176  92.9252
 1.61355  94.5161
 1.64535  93.2379
 1.67714  94.6372
 1.70894  92.016
 1.74073  92.2944
 1.77252  92.7622
 1.80432  92.5926
 1.83611  97.2955
 1.86791  115.996
 1.8997  124.86
 1.9315  103.093
 1.96329  101.784
 1.99508  104.711
 2.02688  107.503
 2.05867  104.975
 2.09047  102.909
 2.12226  100.711
 2.15405  102.736
 2.18585  109.53
 2.21764  107.029
 2.24944  97.5023
 2.28123  96.4697
 2.31303  96.2076
 2.34482  97.4792
 2.37661  99.6452
 2.40841  100.295
 2.4402  102.195
 2.472  107.345
 2.50379  116.656
 2.53558  112.648
 2.56738  106.828
 2.59917  104.699
 2.63097  106.779
 2.66276  108.685
 2.69456  110.457
 2.72635  101.932
 2.75814  103.522
 2.78994  106.893
 2.82173  115.226
 2.85353  107.805
 2.88532  102.894
 2.91711  102.576
 2.94891  117.278
 2.9807  106.74
 3.0125  108.616
 3.04429  108.159
 3.07609  104.064
 3.10788  101.934
 3.13967  108.601
 3.17147  120.554
 3.20326  107.642
 3.23506  105.855
 3.26685  103.732
 3.29865  100.244
 3.33044  100.785
 3.36223  99.1291
 3.39403  103.013
 3.42582  111.299
 3.45762  106.665
 3.48941  104.38
 3.5212  101.597
 3.553  102.209
 3.58479  102.72
 3.61659  99.9172
 3.64838  97.6862
 3.68018  98.9138
 3.71197  107.62
 3.74376  102.097
 3.77556  99.432
 3.80735  100.632
 3.83915  98.7031
 3.87094  101.63
 3.90273  104.229
 3.93453  100.465
 3.96632  100.453
 3.99812  99.0214
 4.02991  100.293
 4.06171  101.002
 4.0935  102.274
 4.12529  99.0712
 4.15709  97.6728
 4.18888  99.3111
 4.22068  101.748
 4.25247  100.81
 4.28426  99.8106
 4.31606  99.6978
 4.34785  107.385
 4.37965  103.376
 4.41144  101.493
 4.44323  100.516
 4.47503  98.0601
 4.50682  98.9663
 4.53862  98.6889
 4.57041  100.082
 4.60221  107.018
 4.634  107.158
 4.66579  101.819
 4.69759  101.367
 4.72938  101.369
 4.76118  101.216
 4.79297  114.806
 4.82477  133.082
 4.85656  102.665
 4.88835  99.7709
 4.92015  99.746
 4.95194  102.078
 4.98374  102.15
 5.01553  100.272
 5.04732  101.527
 5.07912  99.5359
 5.11091  98.1432
 5.14271  97.9108
 5.1745  101.115
 5.20629  99.5875
 5.23809  96.3091
 5.26988  100.497
 5.30168  108.189
 5.33347  99.7068
 5.36527  95.769
 5.39706  104.903
 5.42885  113.609
 5.46065  112.992
 5.49244  102.952
 5.52424  103.157
 5.55603  94.7253
 5.58783  92.063
 5.61962  92.2457
 5.65141  92.3101
 5.68321  93.4243
 5.715  92.0509
 5.7468  89.624
 5.77859  91.2419
 5.81038  91.6204
 5.84218  91.4288
 5.87397  92.3614
 5.90577  95.6809
 5.93756  89.2693
 5.96936  91.5815
 6.00115  93.7497
 6.03294  90.8652
 6.06474  88.2936
 6.09653  87.5637
 6.12833  86.2256
 6.16012  86.123
 6.19191  88.9681
 6.22371  90.7019
 6.2555  91.2771
 6.2873  94.866
 6.31909  94.0929
 6.35089  93.5871
 6.38268  98.5637
 6.41447  95.6547
 6.44627  88.4354
 6.47806  86.4691
 6.50986  90.4306
 6.54165  88.6707
 6.57344  85.5305
 6.60524  84.067
 6.63703  84.2352
 6.66883  85.0315
 6.70062  88.2127
 6.73242  87.8922
 6.76421  89.7415
 6.796  84.2478
 6.8278  84.3416
 6.85959  85.213
 6.89139  83.6883
 6.92318  83.3849
 6.95497  82.9827
 6.98677  84.3566
 7.01856  83.6667
 7.05036  84.1713
 7.08215  87.2549
 7.11395  93.9458
 7.14574  90.5643
 7.17753  90.3955
 7.20933  87.9341
 7.24112  88.8698
 7.27292  90.2436
 7.30471  90.5498
 7.3365  88.8559
 7.3683  87.0726
 7.40009  91.0124
 7.43189  92.1636
 7.46368  86.755
 7.49548  87.8231
 7.52727  86.3253
 7.55906  85.1055
 7.59086  85.5894
 7.62265  86.5284
 7.65445  82.9461
 7.68624  83.8776
 7.71803  85.0022
 7.74983  84.6329
 7.78162  84.9418
 7.81342  92.7102
 7.84521  97.1197
 7.87701  93.7726
 7.9088  89.6568
 7.94059  123.984
 7.97239  94.839
 8.00418  94.8208
 8.03598  110.054
 8.06777  105.063
 8.09956  102.681
 8.13136  92.4865
 8.16315  84.3678
 8.19495  86.0811
 8.22674  90.5381
 8.25854  87.6542
 8.29033  86.4931
 8.32212  84.2206
 8.35392  85.6774
 8.38571  95.5582
 8.41751  122.187
 8.4493  111.017
 8.48109  110.074
 8.51289  94.4955
 8.54468  92.4734
 8.57648  91.513
 8.60827  94.2219
 8.64007  88.8128
 8.67186  88.636
 8.70365  87.696
 8.73545  87.2247
 8.76724  89.5399
 8.79904  93.3575
 8.83083  88.5177
 8.86262  93.0104
 8.89442  99.5934
 8.92621  87.4752
 8.95801  85.9889
 8.9898  86.6428
 9.02159  87.3089
 9.05339  90.4884
 9.08518  98.0346
 9.11698  103.504
 9.14877  100.879
 9.18057  104.225
 9.21236  100.741
 9.24415  99.7206
 9.27595  99.8727
 9.30774  100.395
 9.33954  102.098
 9.37133  102.07
 9.40313  103.866
 9.43492  105.297
 9.46671  105.331
 9.49851  106.152
 9.5303  106.025
 9.5621  106.882
 9.59389  108.626
 9.62568  109.664
 9.65748  114.265
 9.68927  115.923
 9.72107  113.26
 9.75286  114.221
 9.78466  115.367
 9.81645  116.457
 9.84824  119.457
 9.88004  128.439
 9.91183  140.171
 9.94363  146.584
 9.97542  141.307
 10.0072  133.092
 10.039  127.669
 10.0708  127.001
 10.1026  128.509
 10.1344  129.152
 10.1662  130.864
 10.198  128.688
 10.2298  131.451
 10.2616  132.973
 10.2934  133.209
 10.3252  131.507
 10.357  131.552
 10.3887  138.402
 10.4205  144.66
 10.4523  166.801
 10.4841  141.089
 10.5159  138.322
 10.5477  141.88
 10.5795  143.96
 10.6113  147.496
 10.6431  153.258
 10.6749  147.157
 10.7067  144.128
 10.7385  145.67
 10.7703  144.5
 10.8021  144.324
 10.8339  146.968
 10.8657  146.569
 10.8975  154.381
 10.9292  152.286
 10.961  152.828
 10.9928  153.873
 11.0246  151.882
 11.0564  153.91
 11.0882  155.687
 11.12  162.012
 11.1518  163.007
 11.1836  166.985
 11.2154  177.484
 11.2472  174.447
 11.279  178.126
 11.3108  168.017
 11.3426  172.181
 11.3744  168.56
 11.4062  170.568
 11.438  169.501
 11.4697  167.634
 11.5015  170.188
 11.5333  171.07
 11.5651  177.887
 11.5969  192.062
 11.6287  192.081
 11.6605  186.551
 11.6923  186.125
 11.7241  178.841
 11.7559  177.121
 11.7877  178.886
 11.8195  186.129
 11.8513  217.472
 11.8831  195.92
 11.9149  186.441
 11.9467  182.545
 11.9785  185.077
 12.0102  188.142
 12.042  185.598
 12.0738  182.736
 12.1056  181.4
 12.1374  179.948
 12.1692  180.982
 12.201  186.136
 12.2328  191.242
 12.2646  186.961
 12.2964  188.982
 12.3282  176.674
 12.36  176.186
 12.3918  178.058
 12.4236  183.231
 12.4554  181.804
 12.4872  178.464
 12.519  183.847
 12.5507  179.89
 12.5825  178.106
 12.6143  176.071
 12.6461  177.448
 12.6779  172.471
 12.7097  173.518
 12.7415  178.759
 12.7733  177.475
 12.8051  170.41
 12.8369  174.324
 12.8687  176.943
 12.9005  177.328
 12.9323  171.66
 12.9641  171.375
 12.9959  171.412
 13.0277  165.865
 13.0595  170.077
 13.0912  172.869
 13.123  168.337
 13.1548  166.864
 13.1866  165.047
 13.2184  169.515
 13.2502  167.609
 13.282  164.441
 13.3138  162.338
 13.3456  161.717
 13.3774  163.941
 13.4092  170.016
 13.441  177.239
 13.4728  175.111
 13.5046  177.221
 13.5364  169.298
 13.5682  168.421
 13.6  169.189
 13.6318  171.737
 13.6635  168.278
 13.6953  171.238
 13.7271  169.365
 13.7589  164.729
 13.7907  170.035
 13.8225  165.611
 13.8543  167.325
 13.8861  167.615
 13.9179  173.433
 13.9497  174.028
 13.9815  178.196
 14.0133  194.85
 14.0451  170.619
 14.0769  167.649
 14.1087  168.169
 14.1405  170.863
 14.1723  184.649
 14.204  175.581
 14.2358  171.902
 14.2676  171.79
 14.2994  173.758
 14.3312  173.539
 14.363  172.202
 14.3948  174.338
 14.4266  178.336
 14.4584  185.66
 14.4902  195.263
 14.522  189.459
 14.5538  191.934
 14.5856  190.888
 14.6174  189.296
 14.6492  197.85
 14.681  192.823
 14.7128  191.255
 14.7445  190.933
 14.7763  192.173
 14.8081  198.196
 14.8399  206.103
 14.8717  204.141
 14.9035  203.237
 14.9353  205.551
 14.9671  194.35
 14.9989  191.941
 15.0307  189.622
 15.0625  188.882
 15.0943  186.353
 15.1261  185.919
 15.1579  187.704
 15.1897  187.895
 15.2215  199.136
 15.2533  193.137
 15.285  189.477
 15.3168  185.837
 15.3486  183.703
 15.3804  195.459
 15.4122  192.234
 15.444  186.01
 15.4758  180.213
 15.5076  179.632
 15.5394  182.778
 15.5712  198.657
 15.603  183.711
 15.6348  183.477
 15.6666  180.448
 15.6984  180.315
 15.7302  178.594
 15.762  178.709
 15.7938  182.256
 15.8255  207.13
 15.8573  200.714
 15.8891  181.47
 15.9209  175.95
 15.9527  178.837
 15.9845  171.972
 16.0163  171.341
 16.0481  173.895
 16.0799  176.843
 16.1117  177.199
 16.1435  178.498
 16.1753  200.704
 16.2071  184.855
 16.2389  194.37
 16.2707  209.38
 16.3025  181.984
 16.3343  172.591
 16.366  176.607
 16.3978  173.665
 16.4296  174.884
 16.4614  180.669
 16.4932  176.531
 16.525  219.63
 16.5568  203.971
 16.5886  189.101
 16.6204  177.036
 16.6522  184.105
 16.684  178.265
 16.7158  183.774
 16.7476  178.953
 16.7794  167.099
 16.8112  165.819
 16.843  171.294
 16.8748  168.607
 16.9065  164.449
 16.9383  164.956
 16.9701  175.432
 17.0019  164.713
 17.0337  167.49
 17.0655  162
 17.0973  163.901
 17.1291  168.501
 17.1609  161.034
 17.1927  164.88
 17.2245  175
 17.2563  158.677
 17.2881  154.966
 17.3199  155.451
 17.3517  157.046
 17.3835  160.763
 17.4153  159.328
 17.4471  163.754
 17.4788  171.501
 17.5106  183.269
 17.5424  167.691
 17.5742  164.537
 17.606  203.552
 17.6378  193.888
 17.6696  168.207
 17.7014  170.125
 17.7332  171.487
 17.765  169.298
 17.7968  182.982
 17.8286  165.868
 17.8604  170.266
 17.8922  174.733
 17.924  167.707
 17.9558  170.777
 17.9876  166.088
 18.0193  163.475
 18.0511  169.469
 18.0829  189.253
 18.1147  192.468
 18.1465  154.525
 18.1783  157.264
 18.2101  155.69
 18.2419  149.034
 18.2737  147.443
 18.3055  148.904
 18.3373  144.834
 18.3691  154.311
 18.4009  148.274
 18.4327  150.186
 18.4645  144.253
 18.4963  141.456
 18.5281  140.863
 18.5598  144.741
 18.5916  142.634
 18.6234  146.108
 18.6552  144.352
 18.687  144.884
 18.7188  147.904
 18.7506  144.006
 18.7824  143.466
 18.8142  141.28
 18.846  144.48
 18.8778  148.894
 18.9096  148.127
 18.9414  142.841
 18.9732  150.938
 19.005  151.442
 19.0368  148.522
 19.0686  166.11
 19.1003  152.975
 19.1321  151.812
 19.1639  150.455
 19.1957  140.431
 19.2275  140.383
 19.2593  136.668
 19.2911  135.664
 19.3229  137.572
 19.3547  143.563
 19.3865  154.653
 19.4183  139.236
 19.4501  134.134
 19.4819  134.412
 19.5137  132.697
 19.5455  133.444
 19.5773  140.512
 19.6091  141.232
 19.6408  137.244
 19.6726  133.943
 19.7044  136.006
 19.7362  132.973
 19.768  133.803
 19.7998  134.829
 19.8316  134.254
 19.8634  138.517
 19.8952  137.129
 19.927  147.811
 19.9588  141.879
 19.9906  136.977
 20.0224  138.173
 20.0542  133.393
 20.086  133.723
 20.1178  146.403
 20.1496  137.057
 20.1813  128.016
 20.2131  131.91
 20.2449  131.04
 20.2767  127.986
 20.3085  127.275
 20.3403  126.438
 20.3721  130.087
 20.4039  128.456
 20.4357  128.656
 20.4675  128.68
 20.4993  134.684
 20.5311  130.03
 20.5629  131.953
 20.5947  131.506
 20.6265  132.752
 20.6583  138.253
 20.6901  148.578
 20.7218  144.472
 20.7536  137.777
 20.7854  148.128
 20.8172  162.893
 20.849  140.943
 20.8808  126.734
 20.9126  138.971
 20.9444  132.843
 20.9762  121.986
 21.008  123.243
 21.0398  119.576
 21.0716  115.663
 21.1034  115.924
 21.1352  116.906
 21.167  116.24
 21.1988  117.286
 21.2306  118.141
 21.2624  115.095
 21.2941  116.935
 21.3259  118.916
 21.3577  120.362
 21.3895  119.282
 21.4213  123.926
 21.4531  135.488
 21.4849  134.241
 21.5167  132.357
 21.5485  115.374
 21.5803  112.87
 21.6121  113.368
 21.6439  113.189
 21.6757  114.464
 21.7075  117.841
 21.7393  134.523
 21.7711  128.621
 21.8029  110.745
 21.8346  108.539
 21.8664  108.036
 21.8982  108.647
 21.93  107.895
 21.9618  110.874
 21.9936  108.873
 22.0254  109.366
 22.0572  109.504
 22.089  106.946
 22.1208  107.168
 22.1526  109.937
 22.1844  111.259
 22.2162  116.721
 22.248  106.721
 22.2798  110.82
 22.3116  107.382
 22.3434  107.71
 22.3751  107.425
 22.4069  105.444
 22.4387  106.945
 22.4705  118.649
 22.5023  110.53
 22.5341  108.629
 22.5659  111.715
 22.5977  113.378
 22.6295  113.333
 22.6613  108.193
 22.6931  108.969
 22.7249  118.234
 22.7567  126.581
 22.7885  108.465
 22.8203  112.874
 22.8521  108.377
 22.8839  104.934
 22.9156  109.993
 22.9474  109.739
 22.9792  112.91
 23.011  125.014
 23.0428  118.237
 23.0746  122.145
 23.1064  121.508
 23.1382  114.322
 23.17  112.766
 23.2018  118.718
 23.2336  113.615
 23.2654  113.204
 23.2972  118.431
 23.329  109.773
 23.3608  99.7917
 23.3926  97.6466
 23.4244  97.4081
 23.4561  99.5515
 23.4879  100.332
 23.5197  99.2636
 23.5515  96.3795
 23.5833  96.5097
 23.6151  98.0937
 23.6469  100.849
 23.6787  107.323
 23.7105  101.937
 23.7423  100.952
 23.7741  100.9
 23.8059  100.798
 23.8377  99.7584
 23.8695  93.1784
 23.9013  91.8147
 23.9331  90.3687
 23.9649  91.0648
 23.9966  91.3307
 24.0284  91.3601
 24.0602  90.5952
 24.092  90.3243
 24.1238  93.2929
 24.1556  96.006
 24.1874  92.8218
 24.2192  93.0965
 24.251  92.5369
 24.2828  98.2086
 24.3146  99.6682
 24.3464  93.8796
 24.3782  88.9796
 24.41  87.3616
 24.4418  90.4749
 24.4736  93.3629
 24.5054  86.4776
 24.5371  85.0088
 24.5689  84.3572
 24.6007  84.8554
 24.6325  83.909
 24.6643  83.8226
 24.6961  83.2969
 24.7279  82.71
 24.7597  83.6059
 24.7915  83.2107
 24.8233  83.2138
 24.8551  83.6897
 24.8869  80.479
 24.9187  80.3683
 24.9505  81.7208
 24.9823  89.95
 25.0141  83.687
 25.0459  83.5908
 25.0776  84.3352
 25.1094  83.24
 25.1412  82.9465
 25.173  82.9237
 25.2048  82.7591
 25.2366  85.3615
 25.2684  85.2416
 25.3002  78.7278
 25.332  77.66
 25.3638  79.1245
 25.3956  79.8123
 25.4274  78.8812
 25.4592  77.1736
 25.491  77.0747
 25.5228  77.9866
 25.5546  79.5579
 25.5864  81.9412
 25.6182  83.8123
 25.6499  82.5305
 25.6817  82.8352
 25.7135  85.8117
 25.7453  74.1122
 25.7771  71.3222
 25.8089  70.7168
 25.8407  69.889
 25.8725  69.3891
 25.9043  69.2612
 25.9361  69.3376
 25.9679  68.8849
 25.9997  71.1325
 26.0315  69.5004
 26.0633  68.8074
 26.0951  68.2797
 26.1269  69.5883
 26.1587  70.0047
 26.1904  73.5971
 26.2222  77.2572
 26.254  81.333
 26.2858  86.1807
 26.3176  87.8964
 26.3494  89.4213
 26.3812  89.8393
 26.413  94.6885
 26.4448  95.5051
 26.4766  95.6137
 26.5084  97.6943
 26.5402  100.909
 26.572  100.069
 26.6038  101.667
 26.6356  101.859
 26.6674  102.119
 26.6992  106.884
 26.7309  111.104
 26.7627  109.416
 26.7945  113.404
 26.8263  114.384
 26.8581  118.547
 26.8899  120.53
 26.9217  131.559
 26.9535  129.563
 26.9853  118.488
 27.0171  117.943
 27.0489  120.312
 27.0807  121.595
 27.1125  121.168
 27.1443  122.904
 27.1761  126.078
 27.2079  128.111
 27.2397  130.413
 27.2714  133.645
 27.3032  135.629
 27.335  141.097
 27.3668  130.427
 27.3986  130.227
 27.4304  130.444
 27.4622  132.717
 27.494  126.549
 27.5258  124.123
 27.5576  126.613
 27.5894  127.109
 27.6212  129.339
 27.653  130.194
 27.6848  128.834
 27.7166  128.519
 27.7484  123.884
 27.7802  126.805
 27.8119  121.874
 27.8437  121.504
 27.8755  126.151
 27.9073  124.166
 27.9391  122.079
 27.9709  124.919
 28.0027  127.773
 28.0345  128.088
 28.0663  143.913
 28.0981  127.754
 28.1299  121.172
 28.1617  117.85
 28.1935  117.513
 28.2253  119.039
 28.2571  117.666
 28.2889  117.1
 28.3207  119.144
 28.3524  126.409
 28.3842  128.647
 28.416  126.635
 28.4478  120.184
 28.4796  109.101
 28.5114  104.889
 28.5432  100.942
 28.575  100.588
 28.6068  100.097
 28.6386  103.761
 28.6704  94.3361
 28.7022  92.3782
 28.734  90.6009
 28.7658  90.335
 28.7976  86.688
 28.8294  80.643
 28.8612  77.2015
 28.8929  73.2909
 28.9247  69.616
 28.9565  66.9702
 28.9883  63.9897
 29.0201  60.2732
 29.0519  56.1897
 29.0837  51.2184
 29.1155  47.2479
 29.1473  42.5731
 29.1791  35.8198
 29.2109  27.123
 29.2427  14.281
 29.2745  0.302981
 29.3063  0.0000000E+00
 29.3381  0.0000000E+00
 29.3699  0.0000000E+00
 29.4017  0.0000000E+00
 29.4335  0.0000000E+00
 29.4652  0.0000000E+00
 29.497  0.0000000E+00
 29.5288  0.0000000E+00
 29.5606  0.0000000E+00
 29.5924  0.0000000E+00
 29.6242  0.0000000E+00
 29.656  0.0000000E+00
 29.6878  0.0000000E+00
 29.7196  0.0000000E+00
 29.7514  0.0000000E+00
 29.7832  0.0000000E+00
 29.815  0.0000000E+00
 29.8468  0.0000000E+00
 29.8786  0.0000000E+00
 29.9104  0.0000000E+00
 29.9422  0.0000000E+00
 29.974  0.0000000E+00
 30.0057  0.0000000E+00
 30.0375  0.0000000E+00
 30.0693  0.0000000E+00
 30.1011  0.0000000E+00
 30.1329  0.0000000E+00
 30.1647  0.0000000E+00
 30.1965  0.0000000E+00
 30.2283  0.0000000E+00
 30.2601  0.0000000E+00
 30.2919  0.0000000E+00
 30.3237  0.0000000E+00
 30.3555  0.0000000E+00
 30.3873  0.0000000E+00
 30.4191  0.0000000E+00
 30.4509  0.0000000E+00
 30.4827  0.0000000E+00
 30.5145  0.0000000E+00
 30.5462  0.0000000E+00
 30.578  0.0000000E+00
 30.6098  0.0000000E+00
 30.6416  0.0000000E+00
 30.6734  0.0000000E+00
 30.7052  0.0000000E+00
 30.737  0.0000000E+00
 30.7688  0.0000000E+00
 30.8006  0.0000000E+00
 30.8324  0.0000000E+00
 30.8642  0.0000000E+00
 30.896  0.0000000E+00
 30.9278  0.0000000E+00
 30.9596  0.0000000E+00
 30.9914  0.0000000E+00
 31.0232  0.0000000E+00
 31.055  0.0000000E+00
 31.0867  0.0000000E+00
 31.1185  0.0000000E+00
 31.1503  0.0000000E+00
 31.1821  0.0000000E+00
 31.2139  0.0000000E+00
 31.2457  0.0000000E+00
 31.2775  0.0000000E+00
 31.3093  0.0000000E+00
 31.3411  0.0000000E+00
 31.3729  0.0000000E+00
 31.4047  0.0000000E+00
 31.4365  0.0000000E+00
 31.4683  0.0000000E+00
 31.5001  0.0000000E+00
 31.5319  0.0000000E+00
 31.5637  0.0000000E+00
 31.5955  0.0000000E+00
 31.6272  0.0000000E+00
 31.659  0.0000000E+00
 31.6908  0.0000000E+00
 31.7226  0.0000000E+00
 31.7544  0.0000000E+00
 31.7862  0.0000000E+00
 31.818  0.0000000E+00
 31.8498  0.0000000E+00
 31.8816  0.0000000E+00
 31.9134  0.0000000E+00
 31.9452  0.0000000E+00
 31.977  0.0000000E+00
 32.0088  0.0000000E+00
 32.0406  0.0000000E+00
 32.0724  0.0000000E+00
 32.1042  0.0000000E+00
 32.136  0.0000000E+00
 32.1678  0.0000000E+00
 32.1995  0.0000000E+00
 32.2313  0.0000000E+00
 32.2631  0.0000000E+00
 32.2949  0.0000000E+00
 32.3267  0.0000000E+00
 32.3585  0.0000000E+00
 32.3903  0.0000000E+00
 32.4221  0.0000000E+00
 32.4539  0.0000000E+00
 32.4857  0.0000000E+00
 32.5175  0.0000000E+00
 32.5493  0.0000000E+00
 32.5811  0.0000000E+00
 32.6129  0.0000000E+00
 32.6447  0.0000000E+00
 32.6765  0.0000000E+00
 32.7083  0.0000000E+00
 32.74  0.0000000E+00
 32.7718  0.0000000E+00
 32.8036  0.0000000E+00
 32.8354  0.0000000E+00
 32.8672  0.0000000E+00
 32.899  0.0000000E+00
 32.9308  0.0000000E+00
 32.9626  0.0000000E+00
 32.9944  0.0000000E+00
 33.0262  0.0000000E+00
 33.058  0.0000000E+00
 33.0898  0.0000000E+00
 33.1216  0.0000000E+00
 33.1534  0.0000000E+00
 33.1852  0.0000000E+00
 33.217  0.0000000E+00
 33.2488  0.0000000E+00
 33.2805  0.0000000E+00
 33.3123  0.0000000E+00
 33.3441  0.0000000E+00
 33.3759  0.0000000E+00
 33.4077  0.0000000E+00
 33.4395  0.0000000E+00
 33.4713  0.0000000E+00
 33.5031  0.0000000E+00
 33.5349  0.0000000E+00
 33.5667  0.0000000E+00
 33.5985  0.0000000E+00
 33.6303  0.0000000E+00
 33.6621  0.0000000E+00
 33.6939  0.0000000E+00
 33.7257  0.0000000E+00
 33.7575  0.0000000E+00
 33.7893  0.0000000E+00
 33.821  0.0000000E+00
 33.8528  0.0000000E+00
 33.8846  0.0000000E+00
 33.9164  0.0000000E+00
 33.9482  0.0000000E+00
 33.98  0.0000000E+00
 34.0118  0.0000000E+00
 34.0436  0.0000000E+00
 34.0754  0.0000000E+00
 34.1072  0.0000000E+00
 34.139  0.0000000E+00
 34.1708  0.0000000E+00
 34.2026  0.0000000E+00
 34.2344  0.0000000E+00
 34.2662  0.0000000E+00
 34.298  0.0000000E+00
 34.3298  0.0000000E+00
 34.3615  0.0000000E+00
 34.3933  0.0000000E+00
 34.4251  0.0000000E+00
 34.4569  0.0000000E+00
 34.4887  0.0000000E+00
 34.5205  0.0000000E+00
 34.5523  0.0000000E+00
 34.5841  0.0000000E+00
 34.6159  0.0000000E+00
 34.6477  0.0000000E+00
 34.6795  0.0000000E+00
 34.7113  0.0000000E+00
 34.7431  0.0000000E+00
 34.7749  0.0000000E+00
 34.7908  0.0000000E+00